key_resp_4.keys,key_resp_4.rt,key_resp_5.keys,key_resp_5.rt,key_resp_6.keys,key_resp_6.rt,key_resp_7.keys,key_resp_7.rt,trials.thisRepN,trials.thisTrialN,trials.thisN,trials.thisIndex,trials.ran,trials.order,word,ground_truth,image,category,distance_x,distance_y,participant,session,date,expName,psychopyVersion,frameRate,fbclid
w,3.724,n,3.485,space,2.102,w,5.364,1,0,48,0,1,47,sword,w,blank.png,high_none,0.22,0,,001,2019-05-29_13h53.50.473,word_arousal,3.1.2,60,IwAR318zc41WHR6yLux6mmGkoSaT9cJ_5Xb7Xr-QyewFnfomip1jwfs5qqRbk
,,,,,,w,1.338,1,0,48,1,1,47,tea,w,blank.png,low_none,0.22,0,,001,2019-05-29_13h53.50.473,word_arousal,3.1.2,60,IwAR318zc41WHR6yLux6mmGkoSaT9cJ_5Xb7Xr-QyewFnfomip1jwfs5qqRbk
,,,,,,n,1.319,1,0,48,2,1,47,jears,n,EmjAp68.png,nonse_high,0.2,0,,001,2019-05-29_13h53.50.473,word_arousal,3.1.2,60,IwAR318zc41WHR6yLux6mmGkoSaT9cJ_5Xb7Xr-QyewFnfomip1jwfs5qqRbk
,,,,,,w,1.424,1,0,48,3,1,47,title,w,EmjAp22.png,low_med,0.17,0,,001,2019-05-29_13h53.50.473,word_arousal,3.1.2,60,IwAR318zc41WHR6yLux6mmGkoSaT9cJ_5Xb7Xr-QyewFnfomip1jwfs5qqRbk
,,,,,,w,2.51,1,0,48,4,1,47,dust,w,EmjAp22.png,med_med,205,0,,001,2019-05-29_13h53.50.473,word_arousal,3.1.2,60,IwAR318zc41WHR6yLux6mmGkoSaT9cJ_5Xb7Xr-QyewFnfomip1jwfs5qqRbk
,,,,,,n,1.957,1,0,48,5,1,47,meel,n,EmjAp34.png,nonse_low,0.2,0,,001,2019-05-29_13h53.50.473,word_arousal,3.1.2,60,IwAR318zc41WHR6yLux6mmGkoSaT9cJ_5Xb7Xr-QyewFnfomip1jwfs5qqRbk
,,,,,,n,1.283,1,0,48,6,1,47,phomy,n,blank.png,nonse_none,0.22,0,,001,2019-05-29_13h53.50.473,word_arousal,3.1.2,60,IwAR318zc41WHR6yLux6mmGkoSaT9cJ_5Xb7Xr-QyewFnfomip1jwfs5qqRbk
,,,,,,n,1.127,1,0,48,7,1,47,fible,n,EmjAp22.png,nonse_med,0.185,0,,001,2019-05-29_13h53.50.473,word_arousal,3.1.2,60,IwAR318zc41WHR6yLux6mmGkoSaT9cJ_5Xb7Xr-QyewFnfomip1jwfs5qqRbk
,,,,,,w,1.525,1,0,48,8,1,47,grain,w,EmjAp68.png,low_high,0.2,0,,001,2019-05-29_13h53.50.473,word_arousal,3.1.2,60,IwAR318zc41WHR6yLux6mmGkoSaT9cJ_5Xb7Xr-QyewFnfomip1jwfs5qqRbk
,,,,,,n,2.559,1,0,48,9,1,47,amose,n,blank.png,nonse_none,0.22,0,,001,2019-05-29_13h53.50.473,word_arousal,3.1.2,60,IwAR318zc41WHR6yLux6mmGkoSaT9cJ_5Xb7Xr-QyewFnfomip1jwfs5qqRbk
,,,,,,w,1.351,1,0,48,10,1,47,shock,w,EmjAp68.png,high_high,0.215,0,,001,2019-05-29_13h53.50.473,word_arousal,3.1.2,60,IwAR318zc41WHR6yLux6mmGkoSaT9cJ_5Xb7Xr-QyewFnfomip1jwfs5qqRbk
,,,,,,w,4.407,1,0,48,11,1,47,lates,n,EmjAp68.png,nonse_high,0.195,0,,001,2019-05-29_13h53.50.473,word_arousal,3.1.2,60,IwAR318zc41WHR6yLux6mmGkoSaT9cJ_5Xb7Xr-QyewFnfomip1jwfs5qqRbk
,,,,,,w,1.744,1,0,48,12,1,47,flame,w,EmjAp22.png,high_med,0.213,0,,001,2019-05-29_13h53.50.473,word_arousal,3.1.2,60,IwAR318zc41WHR6yLux6mmGkoSaT9cJ_5Xb7Xr-QyewFnfomip1jwfs5qqRbk
,,,,,,w,3.707,1,0,48,13,1,47,romance,w,EmjAp34.png,high_low,0.27,0,,001,2019-05-29_13h53.50.473,word_arousal,3.1.2,60,IwAR318zc41WHR6yLux6mmGkoSaT9cJ_5Xb7Xr-QyewFnfomip1jwfs5qqRbk
,,,,,,n,2.434,1,0,48,14,1,47,tex,n,EmjAp22.png,nonse_med,0.16,0,,001,2019-05-29_13h53.50.473,word_arousal,3.1.2,60,IwAR318zc41WHR6yLux6mmGkoSaT9cJ_5Xb7Xr-QyewFnfomip1jwfs5qqRbk
,,,,,,n,2.922,1,0,48,15,1,47,whool,n,EmjAp22.png,nonse_med,0.215,0,,001,2019-05-29_13h53.50.473,word_arousal,3.1.2,60,IwAR318zc41WHR6yLux6mmGkoSaT9cJ_5Xb7Xr-QyewFnfomip1jwfs5qqRbk
,,,,,,n,5.106,1,0,48,16,1,47,tovel,n,blank.png,nonse_none,0.22,0,,001,2019-05-29_13h53.50.473,word_arousal,3.1.2,60,IwAR318zc41WHR6yLux6mmGkoSaT9cJ_5Xb7Xr-QyewFnfomip1jwfs5qqRbk
,,,,,,w,1.409,1,0,48,17,1,47,pupil,w,EmjAp34.png,med_low,0.2,0,,001,2019-05-29_13h53.50.473,word_arousal,3.1.2,60,IwAR318zc41WHR6yLux6mmGkoSaT9cJ_5Xb7Xr-QyewFnfomip1jwfs5qqRbk
,,,,,,w,1.305,1,0,48,18,1,47,air,w,blank.png,med_none,0.22,0,,001,2019-05-29_13h53.50.473,word_arousal,3.1.2,60,IwAR318zc41WHR6yLux6mmGkoSaT9cJ_5Xb7Xr-QyewFnfomip1jwfs5qqRbk
,,,,,,n,1.258,1,0,48,19,1,47,detry,n,EmjAp34.png,nonse_low,0.205,0,,001,2019-05-29_13h53.50.473,word_arousal,3.1.2,60,IwAR318zc41WHR6yLux6mmGkoSaT9cJ_5Xb7Xr-QyewFnfomip1jwfs5qqRbk
,,,,,,w,1.324,1,0,48,20,1,47,liberty,w,EmjAp68.png,med_high,0.215,0,,001,2019-05-29_13h53.50.473,word_arousal,3.1.2,60,IwAR318zc41WHR6yLux6mmGkoSaT9cJ_5Xb7Xr-QyewFnfomip1jwfs5qqRbk
,,,,,,n,2.671,1,0,48,21,1,47,slame,n,EmjAp34.png,nonse_low,0.215,0,,001,2019-05-29_13h53.50.473,word_arousal,3.1.2,60,IwAR318zc41WHR6yLux6mmGkoSaT9cJ_5Xb7Xr-QyewFnfomip1jwfs5qqRbk
,,,,,,w,1.504,1,0,48,22,1,47,blanket,w,EmjAp34.png,low_low,0.24,0,,001,2019-05-29_13h53.50.473,word_arousal,3.1.2,60,IwAR318zc41WHR6yLux6mmGkoSaT9cJ_5Xb7Xr-QyewFnfomip1jwfs5qqRbk
,,,,,,w,1.655,1,0,48,23,1,47,mill,w,blank.png,low_none,0.22,0,,001,2019-05-29_13h53.50.473,word_arousal,3.1.2,60,IwAR318zc41WHR6yLux6mmGkoSaT9cJ_5Xb7Xr-QyewFnfomip1jwfs5qqRbk
,,,,,,n,1.094,1,0,48,24,1,47,utoa,n,EmjAp22.png,nonse_med,0.19,0,,001,2019-05-29_13h53.50.473,word_arousal,3.1.2,60,IwAR318zc41WHR6yLux6mmGkoSaT9cJ_5Xb7Xr-QyewFnfomip1jwfs5qqRbk
,,,,,,w,1.28,1,0,48,25,1,47,manner,w,EmjAp68.png,med_high,0.245,0,,001,2019-05-29_13h53.50.473,word_arousal,3.1.2,60,IwAR318zc41WHR6yLux6mmGkoSaT9cJ_5Xb7Xr-QyewFnfomip1jwfs5qqRbk
,,,,,,w,2.12,1,0,48,26,1,47,bagle,n,EmjAp68.png,nonse_high,0.21,0,,001,2019-05-29_13h53.50.473,word_arousal,3.1.2,60,IwAR318zc41WHR6yLux6mmGkoSaT9cJ_5Xb7Xr-QyewFnfomip1jwfs5qqRbk
,,,,,,w,2.556,1,0,48,27,1,47,riot,w,EmjAp34.png,high_low,0.165,0,,001,2019-05-29_13h53.50.473,word_arousal,3.1.2,60,IwAR318zc41WHR6yLux6mmGkoSaT9cJ_5Xb7Xr-QyewFnfomip1jwfs5qqRbk
,,,,,,n,1.348,1,0,48,28,1,47,shick,n,EmjAp34.png,nonse_low,0.205,0,,001,2019-05-29_13h53.50.473,word_arousal,3.1.2,60,IwAR318zc41WHR6yLux6mmGkoSaT9cJ_5Xb7Xr-QyewFnfomip1jwfs5qqRbk
,,,,,,w,1.306,1,0,48,29,1,47,level,w,EmjAp22.png,low_med,0.19,0,,001,2019-05-29_13h53.50.473,word_arousal,3.1.2,60,IwAR318zc41WHR6yLux6mmGkoSaT9cJ_5Xb7Xr-QyewFnfomip1jwfs5qqRbk
,,,,,,n,6.509,1,0,48,30,1,47,minur,n,EmjAp34.png,nonse_low,0.212,0,,001,2019-05-29_13h53.50.473,word_arousal,3.1.2,60,IwAR318zc41WHR6yLux6mmGkoSaT9cJ_5Xb7Xr-QyewFnfomip1jwfs5qqRbk
,,,,,,w,1.12,1,0,48,31,1,47,sex,w,EmjAp68.png,high_high,0.16,0,,001,2019-05-29_13h53.50.473,word_arousal,3.1.2,60,IwAR318zc41WHR6yLux6mmGkoSaT9cJ_5Xb7Xr-QyewFnfomip1jwfs5qqRbk
,,,,,,w,1.929,1,0,48,32,1,47,abuse,w,blank.png,high_none,0.22,0,,001,2019-05-29_13h53.50.473,word_arousal,3.1.2,60,IwAR318zc41WHR6yLux6mmGkoSaT9cJ_5Xb7Xr-QyewFnfomip1jwfs5qqRbk
,,,,,,n,1.181,1,0,48,33,1,47,ciat,n,blank.png,nonse_none,0.22,0,,001,2019-05-29_13h53.50.473,word_arousal,3.1.2,60,IwAR318zc41WHR6yLux6mmGkoSaT9cJ_5Xb7Xr-QyewFnfomip1jwfs5qqRbk
,,,,,,n,1.374,1,0,48,34,1,47,dright,n,EmjAp22.png,nonse_med,0.215,0,,001,2019-05-29_13h53.50.473,word_arousal,3.1.2,60,IwAR318zc41WHR6yLux6mmGkoSaT9cJ_5Xb7Xr-QyewFnfomip1jwfs5qqRbk
,,,,,,w,1.273,1,0,48,35,1,47,glory,w,EmjAp22.png,high_med,0.202,0,,001,2019-05-29_13h53.50.473,word_arousal,3.1.2,60,IwAR318zc41WHR6yLux6mmGkoSaT9cJ_5Xb7Xr-QyewFnfomip1jwfs5qqRbk
,,,,,,n,1.259,1,0,48,36,1,47,aud,n,blank.png,nonse_none,0.22,0,,001,2019-05-29_13h53.50.473,word_arousal,3.1.2,60,IwAR318zc41WHR6yLux6mmGkoSaT9cJ_5Xb7Xr-QyewFnfomip1jwfs5qqRbk
,,,,,,w,1.688,1,0,48,37,1,47,area,w,EmjAp68.png,low_high,0.195,0,,001,2019-05-29_13h53.50.473,word_arousal,3.1.2,60,IwAR318zc41WHR6yLux6mmGkoSaT9cJ_5Xb7Xr-QyewFnfomip1jwfs5qqRbk
,,,,,,w,1.108,1,0,48,38,1,47,jeans,w,EmjAp22.png,med_med,0.2,0,,001,2019-05-29_13h53.50.473,word_arousal,3.1.2,60,IwAR318zc41WHR6yLux6mmGkoSaT9cJ_5Xb7Xr-QyewFnfomip1jwfs5qqRbk
,,,,,,n,1.294,1,0,48,39,1,47,mea,n,blank.png,nonse_none,0.22,0,,001,2019-05-29_13h53.50.473,word_arousal,3.1.2,60,IwAR318zc41WHR6yLux6mmGkoSaT9cJ_5Xb7Xr-QyewFnfomip1jwfs5qqRbk
,,,,,,n,1.577,1,0,48,40,1,47,flart,n,EmjAp34.png,nonse_low,0.18,0,,001,2019-05-29_13h53.50.473,word_arousal,3.1.2,60,IwAR318zc41WHR6yLux6mmGkoSaT9cJ_5Xb7Xr-QyewFnfomip1jwfs5qqRbk
,,,,,,w,1.119,1,0,48,41,1,47,cable,w,EmjAp34.png,med_low,0.215,0,,001,2019-05-29_13h53.50.473,word_arousal,3.1.2,60,IwAR318zc41WHR6yLux6mmGkoSaT9cJ_5Xb7Xr-QyewFnfomip1jwfs5qqRbk
,,,,,,n,2.043,1,0,48,42,1,47,grage,n,EmjAp68.png,nonse_high,0.215,0,,001,2019-05-29_13h53.50.473,word_arousal,3.1.2,60,IwAR318zc41WHR6yLux6mmGkoSaT9cJ_5Xb7Xr-QyewFnfomip1jwfs5qqRbk
,,,,,,n,2.709,1,0,48,43,1,47,dums,n,EmjAp68.png,nonse_high,0.215,0,,001,2019-05-29_13h53.50.473,word_arousal,3.1.2,60,IwAR318zc41WHR6yLux6mmGkoSaT9cJ_5Xb7Xr-QyewFnfomip1jwfs5qqRbk
,,,,,,n,1.642,1,0,48,44,1,47,sparket,n,EmjAp68.png,nonse_high,0.24,0,,001,2019-05-29_13h53.50.473,word_arousal,3.1.2,60,IwAR318zc41WHR6yLux6mmGkoSaT9cJ_5Xb7Xr-QyewFnfomip1jwfs5qqRbk
,,,,,,w,1.691,1,0,48,45,1,47,reply,w,blank.png,med_none,0.22,0,,001,2019-05-29_13h53.50.473,word_arousal,3.1.2,60,IwAR318zc41WHR6yLux6mmGkoSaT9cJ_5Xb7Xr-QyewFnfomip1jwfs5qqRbk
,,,,,,w,1.46,1,0,48,46,1,47,lack,w,EmjAp34.png,low_low,0.18,0,,001,2019-05-29_13h53.50.473,word_arousal,3.1.2,60,IwAR318zc41WHR6yLux6mmGkoSaT9cJ_5Xb7Xr-QyewFnfomip1jwfs5qqRbk
,,,,,,n,1.242,1,0,48,47,1,47,swork,n,EmjAp22.png,nonse_mid,0.22,0,,001,2019-05-29_13h53.50.473,word_arousal,3.1.2,60,IwAR318zc41WHR6yLux6mmGkoSaT9cJ_5Xb7Xr-QyewFnfomip1jwfs5qqRbk
